Folder: MODES/Battery Data/Lydia_data/Salt water CSV (part 2)

File: Pure water.CSV
Wavenumber,Absorbance (I),Background (I0),T,A
4.00E+02,6.26E-02,3.16E-01,1.98E-01,0.7024595
4.17E+02,1.15E-01,5.74E-01,2.01E-01,0.696805
4.33E+02,1.72E-01,8.56E-01,2.01E-01,0.696118
4.49E+02,2.26E-01,1.10E+00,2.06E-01,0.685938
4.66E+02,2.68E-01,1.27E+00,2.10E-01,0.677119
4.82E+02,3.28E-01,1.53E+00,2.15E-01,0.667776
4.99E+02,4.10E-01,1.86E+00,2.20E-01,0.657045
5.15E+02,5.07E-01,2.26E+00,2.24E-01,0.649225
5.31E+02,6.24E-01,2.69E+00,2.32E-01,0.634332
5.48E+02,6.93E-01,2.89E+00,2.40E-01,0.619395
5.64E+02,7.64E-01,3.10E+00,2.47E-01,0.607468
5.80E+02,8.61E-01,3.32E+00,2.60E-01,0.585704
5.97E+02,9.54E-01,3.54E+00,2.69E-01,0.570025
6.13E+02,1.07E+00,3.78E+00,2.81E-01,0.550569
6.30E+02,1.20E+00,4.03E+00,2.96E-01,0.528113
6.46E+02,1.29E+00,4.23E+00,3.05E-01,0.515329
6.62E+02,1.41E+00,4.39E+00,3.22E-01,0.492614
6.79E+02,1.54E+00,4.60E+00,3.36E-01,0.474202
6.95E+02,1.73E+00,4.80E+00,3.61E-01,0.442141
7.12E+02,1.90E+00,4.93E+00,3.86E-01,0.413645
7.28E+02,2.04E+00,5.01E+00,4.06E-01,0.390941
7.44E+02,2.19E+00,5.10E+00,4.29E-01,0.36776
7.61E+02,2.37E+00,5.23E+00,4.52E-01,0.344769
7.77E+02,2.53E+00,5.31E+00,4.76E-01,0.32199
7.94E+02,2.65E+00,5.29E+00,5.00E-01,0.300656
8.10E+02,2.81E+00,5.34E+00,5.26E-01,0.278643
8.26E+02,3.00E+00,5.42E+00,5.55E-01,0.255994
8.43E+02,3.16E+00,5.44E+00,5.81E-01,0.235534
8.59E+02,3.37E+00,5.57E+00,6.04E-01,0.218699
8.76E+02,3.61E+00,5.74E+00,6.29E-01,0.201586
8.92E+02,3.86E+00,5.93E+00,6.51E-01,0.186526
9.08E+02,4.12E+00,6.15E+00,6.70E-01,0.173667
9.25E+02,4.40E+00,6.41E+00,6.86E-01,0.163646
9.41E+02,4.70E+00,6.71E+00,7.01E-01,0.154553
9.57E+02,4.95E+00,6.95E+00,7.12E-01,0.147749
9.74E+02,5.12E+00,7.11E+00,7.20E-01,0.142712
9.90E+02,5.21E+00,7.18E+00,7.26E-01,0.138793
1.01E+03,5.24E+00,7.17E+00,7.31E-01,0.135951
1.02E+03,5.11E+00,6.96E+00,7.34E-01,0.13453
1.04E+03,4.99E+00,6.77E+00,7.37E-01,0.132674
1.06E+03,4.84E+00,6.54E+00,7.39E-01,0.131086
1.07E+03,4.80E+00,6.47E+00,7.41E-01,0.129894
1.09E+03,4.93E+00,6.65E+00,7.42E-01,0.129758
1.11E+03,5.19E+00,6.99E+00,7.42E-01,0.129327
1.12E+03,5.60E+00,7.51E+00,7.45E-01,0.127747
1.14E+03,5.99E+00,8.02E+00,7.47E-01,0.126951
1.15E+03,6.31E+00,8.45E+00,7.47E-01,0.126944
1.17E+03,6.62E+00,8.87E+00,7.46E-01,0.127001
1.19E+03,6.89E+00,9.24E+00,7.46E-01,0.1274675
1.20E+03,7.12E+00,9.55E+00,7.45E-01,0.127819
1.22E+03,7.32E+00,9.83E+00,7.44E-01,0.128215
1.24E+03,7.51E+00,1.01E+01,7.44E-01,0.128665
1.25E+03,7.62E+00,1.03E+01,7.42E-01,0.129532
1.27E+03,7.66E+00,1.03E+01,7.42E-01,0.129842
1.29E+03,7.85E+00,1.06E+01,7.42E-01,0.129333
1.30E+03,7.90E+00,1.06E+01,7.43E-01,0.129121
1.32E+03,7.92E+00,1.07E+01,7.40E-01,0.130745
1.33E+03,7.95E+00,1.07E+01,7.42E-01,0.129792
1.35E+03,7.87E+00,1.06E+01,7.41E-01,0.1299919
1.37E+03,7.67E+00,1.04E+01,7.39E-01,0.131122
1.38E+03,7.57E+00,1.02E+01,7.40E-01,0.130641
1.40E+03,7.52E+00,1.03E+01,7.27E-01,0.138371
1.42E+03,7.44E+00,1.03E+01,7.24E-01,0.140541
1.43E+03,7.63E+00,1.04E+01,7.34E-01,0.134377
1.45E+03,7.65E+00,1.05E+01,7.29E-01,0.137348
1.47E+03,7.54E+00,1.05E+01,7.17E-01,0.14469
1.48E+03,8.01E+00,1.09E+01,7.33E-01,0.135149
1.50E+03,7.47E+00,1.06E+01,7.02E-01,0.1538
1.51E+03,7.48E+00,1.06E+01,7.04E-01,0.152446
1.53E+03,7.35E+00,1.04E+01,7.06E-01,0.151445
1.55E+03,6.96E+00,9.88E+00,7.05E-01,0.151974
1.56E+03,6.95E+00,1.00E+01,6.94E-01,0.158369
1.58E+03,6.85E+00,9.99E+00,6.85E-01,0.164122
1.60E+03,6.48E+00,9.94E+00,6.52E-01,0.185778
1.61E+03,5.91E+00,9.81E+00,6.02E-01,0.220476
1.63E+03,5.37E+00,9.60E+00,5.59E-01,0.252299
1.65E+03,4.77E+00,8.99E+00,5.31E-01,0.274935
1.66E+03,5.36E+00,9.09E+00,5.90E-01,0.229215
1.68E+03,5.80E+00,8.96E+00,6.47E-01,0.189322
1.70E+03,5.32E+00,8.20E+00,6.48E-01,0.188466
1.71E+03,6.07E+00,8.36E+00,7.26E-01,0.139097
1.73E+03,6.02E+00,8.02E+00,7.50E-01,0.124717
1.74E+03,5.81E+00,7.68E+00,7.57E-01,0.121115
1.76E+03,5.56E+00,7.32E+00,7.59E-01,0.119474
1.78E+03,5.38E+00,6.90E+00,7.79E-01,0.10857
1.79E+03,4.81E+00,6.33E+00,7.60E-01,0.118977
1.81E+03,4.55E+00,5.82E+00,7.83E-01,0.106358
1.83E+03,3.70E+00,4.76E+00,7.78E-01,0.108909
1.84E+03,3.18E+00,4.12E+00,7.71E-01,0.112767
1.86E+03,2.91E+00,3.67E+00,7.92E-01,0.101454
1.88E+03,2.56E+00,3.23E+00,7.93E-01,0.100608
1.89E+03,2.20E+00,2.79E+00,7.89E-01,0.102934
1.91E+03,1.87E+00,2.37E+00,7.87E-01,0.103871
1.92E+03,1.53E+00,1.95E+00,7.87E-01,0.104258
1.94E+03,1.13E+00,1.45E+00,7.81E-01,0.107084
1.96E+03,7.86E-01,9.99E-01,7.86E-01,0.104428
1.97E+03,5.61E-01,7.18E-01,7.81E-01,0.10738
1.99E+03,6.98E-01,8.96E-01,7.80E-01,0.107996
2.01E+03,5.82E-01,7.45E-01,7.81E-01,0.107177
2.02E+03,5.36E-01,6.87E-01,7.81E-01,0.107582
2.04E+03,6.10E-01,7.86E-01,7.76E-01,0.110088
2.06E+03,9.40E-01,1.21E+00,7.78E-01,0.109005
2.07E+03,1.14E+00,1.46E+00,7.77E-01,0.109625
2.09E+03,1.36E+00,1.75E+00,7.77E-01,0.1095
2.10E+03,1.36E+00,1.75E+00,7.76E-01,0.110127
2.12E+03,1.37E+00,1.77E+00,7.74E-01,0.111132
2.14E+03,8.76E-01,1.13E+00,7.72E-01,0.112145
2.15E+03,5.39E-01,7.02E-01,7.69E-01,0.114235
2.17E+03,6.06E-01,7.82E-01,7.74E-01,0.111142
2.19E+03,6.93E-01,8.88E-01,7.80E-01,0.108174
2.20E+03,8.41E-01,1.08E+00,7.80E-01,0.1077
2.22E+03,9.75E-01,1.24E+00,7.83E-01,0.106268
2.24E+03,1.16E+00,1.48E+00,7.85E-01,0.105085
2.25E+03,1.38E+00,1.76E+00,7.87E-01,0.104023
2.27E+03,1.70E+00,2.16E+00,7.86E-01,0.1044
2.29E+03,2.33E+00,2.95E+00,7.89E-01,0.102849
2.30E+03,3.07E+00,3.99E+00,7.70E-01,0.113414
2.32E+03,3.48E+00,5.05E+00,6.89E-01,0.161634
2.33E+03,3.78E+00,6.20E+00,6.10E-01,0.214492
2.35E+03,4.16E+00,6.20E+00,6.71E-01,0.173246
2.37E+03,3.17E+00,5.46E+00,5.79E-01,0.237012
2.38E+03,3.93E+00,4.99E+00,7.88E-01,0.103628
2.40E+03,3.56E+00,4.45E+00,8.01E-01,0.0966334
2.42E+03,3.28E+00,4.10E+00,8.02E-01,0.09602983
2.43E+03,3.12E+00,3.89E+00,8.03E-01,0.0955397
2.45E+03,3.10E+00,3.85E+00,8.03E-01,0.0950897
2.47E+03,3.13E+00,3.90E+00,8.03E-01,0.0951822
2.48E+03,3.07E+00,3.82E+00,8.04E-01,0.0948585
2.50E+03,3.05E+00,3.79E+00,8.04E-01,0.0945631
2.51E+03,3.03E+00,3.77E+00,8.05E-01,0.0943618
2.53E+03,3.05E+00,3.78E+00,8.06E-01,0.0938966
2.55E+03,3.11E+00,3.85E+00,8.06E-01,0.0934166
2.56E+03,3.24E+00,4.01E+00,8.07E-01,0.0929904
2.58E+03,3.45E+00,4.27E+00,8.07E-01,0.09308
2.60E+03,3.78E+00,4.68E+00,8.08E-01,0.0925711
2.61E+03,4.28E+00,5.30E+00,8.08E-01,0.0925116
2.63E+03,5.00E+00,6.18E+00,8.08E-01,0.092384
2.65E+03,5.95E+00,7.36E+00,8.08E-01,0.0924559
2.66E+03,6.83E+00,8.46E+00,8.07E-01,0.0929479
2.68E+03,6.86E+00,8.51E+00,8.06E-01,0.0934259
2.70E+03,6.79E+00,8.42E+00,8.06E-01,0.09373
2.71E+03,6.71E+00,8.34E+00,8.05E-01,0.09406923
2.73E+03,6.64E+00,8.25E+00,8.04E-01,0.0944823
2.74E+03,6.56E+00,8.16E+00,8.03E-01,0.0952235
2.76E+03,6.47E+00,8.07E+00,8.02E-01,0.0958153
2.78E+03,6.39E+00,7.98E+00,8.01E-01,0.09660147
2.79E+03,6.29E+00,7.88E+00,7.99E-01,0.0976126
2.81E+03,6.19E+00,7.77E+00,7.97E-01,0.0987947
2.83E+03,6.08E+00,7.66E+00,7.94E-01,0.100404
2.84E+03,5.94E+00,7.52E+00,7.91E-01,0.102078
2.86E+03,5.78E+00,7.35E+00,7.87E-01,0.104095
2.88E+03,5.69E+00,7.27E+00,7.83E-01,0.106459
2.89E+03,5.57E+00,7.16E+00,7.77E-01,0.109408
2.91E+03,5.39E+00,6.99E+00,7.71E-01,0.112738
2.92E+03,5.16E+00,6.76E+00,7.64E-01,0.117012
2.94E+03,5.09E+00,6.73E+00,7.55E-01,0.12184
2.96E+03,4.92E+00,6.61E+00,7.45E-01,0.128093
2.97E+03,4.83E+00,6.59E+00,7.34E-01,0.134514
2.99E+03,4.72E+00,6.55E+00,7.21E-01,0.142268
3.01E+03,4.55E+00,6.45E+00,7.05E-01,0.152056
3.02E+03,4.36E+00,6.35E+00,6.86E-01,0.163448
3.04E+03,4.16E+00,6.25E+00,6.66E-01,0.176516
3.06E+03,3.95E+00,6.15E+00,6.42E-01,0.192218
3.07E+03,3.74E+00,6.07E+00,6.17E-01,0.20954
3.09E+03,3.52E+00,5.98E+00,5.89E-01,0.229685
3.10E+03,3.29E+00,5.89E+00,5.59E-01,0.252368
3.12E+03,3.06E+00,5.79E+00,5.28E-01,0.277127
3.14E+03,2.85E+00,5.71E+00,4.98E-01,0.302773
3.15E+03,2.63E+00,5.63E+00,4.68E-01,0.32952
3.17E+03,2.45E+00,5.55E+00,4.42E-01,0.355027
3.19E+03,2.29E+00,5.47E+00,4.19E-01,0.378142
3.20E+03,2.17E+00,5.42E+00,4.01E-01,0.397085
3.22E+03,2.09E+00,5.39E+00,3.88E-01,0.411244
3.24E+03,2.05E+00,5.38E+00,3.80E-01,0.419683
3.25E+03,2.03E+00,5.38E+00,3.77E-01,0.42358
3.27E+03,2.04E+00,5.42E+00,3.76E-01,0.424298
3.29E+03,2.06E+00,5.46E+00,3.77E-01,0.423849
3.30E+03,2.08E+00,5.50E+00,3.78E-01,0.422985
3.32E+03,2.09E+00,5.52E+00,3.78E-01,0.422018
3.33E+03,2.10E+00,5.53E+00,3.80E-01,0.420704
3.35E+03,2.12E+00,5.53E+00,3.83E-01,0.416853
3.37E+03,2.14E+00,5.51E+00,3.88E-01,0.410835
3.38E+03,2.18E+00,5.48E+00,3.98E-01,0.400023
3.40E+03,2.24E+00,5.44E+00,4.12E-01,0.385543
3.42E+03,2.31E+00,5.38E+00,4.29E-01,0.367415
3.43E+03,2.39E+00,5.32E+00,4.48E-01,0.3484
3.45E+03,2.47E+00,5.26E+00,4.69E-01,0.32849
3.47E+03,2.56E+00,5.21E+00,4.91E-01,0.30866
3.48E+03,2.63E+00,5.15E+00,5.12E-01,0.290932
3.50E+03,2.73E+00,5.10E+00,5.36E-01,0.271068
3.51E+03,2.83E+00,5.06E+00,5.59E-01,0.252742
3.53E+03,2.90E+00,5.00E+00,5.80E-01,0.236903
3.55E+03,2.93E+00,4.90E+00,5.98E-01,0.223376
3.56E+03,2.96E+00,4.79E+00,6.17E-01,0.20946
3.58E+03,3.03E+00,4.70E+00,6.45E-01,0.190411
3.60E+03,3.00E+00,4.57E+00,6.56E-01,0.182798
3.61E+03,2.97E+00,4.45E+00,6.67E-01,0.175881
3.63E+03,2.76E+00,4.24E+00,6.52E-01,0.185696
3.65E+03,3.06E+00,4.34E+00,7.06E-01,0.151381
3.66E+03,3.34E+00,4.41E+00,7.58E-01,0.120484
3.68E+03,3.29E+00,4.33E+00,7.59E-01,0.119783
3.70E+03,3.49E+00,4.43E+00,7.88E-01,0.103378
3.71E+03,3.23E+00,4.30E+00,7.52E-01,0.124056
3.73E+03,3.55E+00,4.53E+00,7.85E-01,0.105239
3.74E+03,3.09E+00,4.30E+00,7.19E-01,0.143032
3.76E+03,3.78E+00,4.77E+00,7.93E-01,0.100738
3.78E+03,3.98E+00,4.94E+00,8.06E-01,0.0935181
3.79E+03,4.10E+00,5.06E+00,8.10E-01,0.0913579
3.81E+03,4.13E+00,5.12E+00,8.08E-01,0.0927804
3.83E+03,4.13E+00,5.16E+00,8.00E-01,0.0969664
3.84E+03,4.08E+00,5.17E+00,7.90E-01,0.102449
3.86E+03,4.24E+00,5.25E+00,8.06E-01,0.09355055
3.88E+03,4.19E+00,5.24E+00,8.00E-01,0.09676112
3.89E+03,4.09E+00,5.18E+00,7.89E-01,0.102681
3.91E+03,4.29E+00,5.28E+00,8.13E-01,0.0900469
3.92E+03,4.22E+00,5.24E+00,8.06E-01,0.0938147
3.94E+03,4.24E+00,5.23E+00,8.10E-01,0.0913357
3.96E+03,4.24E+00,5.21E+00,8.15E-01,0.08910816
3.97E+03,4.21E+00,5.17E+00,8.14E-01,0.0893386
3.99E+03,4.17E+00,5.12E+00,8.15E-01,0.0887641
4.00E+03,4.15E+00,5.09E+00,8.16E-01,0.0881546