Folder: MODES/Battery Data/Li-Li Symmetric Cell/KBrTest_6_10_24

Note: README.md
# MODES

This is a repository made with the goal of being able to analyze data whether or not you are in CB 160. The main goal is to be able to easily pass data back and forth, and to be able to use it wherever, whenever, whether or not you have the flashdrive. This will hopefully facilitate that. Also, multiple people should be able to access the data at the same time.

Upload any spectra into the spectra folder, and don't forget to push commits before leaving the lab!
      - more organization will likely come later as we get more and more data and understand the RaptIR better

If you want a quick run down of Git/pulling/pushing the things you changed or added, talk to someone in the group who often deals with data.


Software Training
https://www.thermofisher.com/us/en/home/industrial/spectroscopy-elemental-isotope-analysis/molecular-spectroscopy/fourier-transform-infrared-spectroscopy/software.html

TQ Analyst Training
https://www.thermofisher.com/us/en/home/industrial/spectroscopy-elemental-isotope-analysis/molecular-spectroscopy/fourier-transform-infrared-spectroscopy/software/tq-analyst-pro-software-training.html

FTIR Training
https://www.thermofisher.com/us/en/home/industrial/spectroscopy-elemental-isotope-analysis/molecular-spectroscopy/fourier-transform-infrared-spectroscopy/resources/ftir-spectroscopy-academy.html

OMNIC Training
https://www.thermofisher.com/us/en/home/industrial/spectroscopy-elemental-isotope-analysis/molecular-spectroscopy/fourier-transform-infrared-spectroscopy/software/omnic-software-training.html

Paradigm Training
https://www.thermofisher.com/us/en/home/industrial/spectroscopy-elemental-isotope-analysis/molecular-spectroscopy/fourier-transform-infrared-spectroscopy/software/omnic-paradigm-software-training.html

File: KBrTest.DTA
EXPLAIN
TAG	CHRONOP
TITLE	LABEL	Chronopotentiometry Scan	Test &Identifier
DATE	LABEL	6/10/2024	Date
TIME	LABEL	14:39:31	Time
NOTES	NOTES	1	&Notes...

PSTAT	PSTAT	IFC1010-39159	Potentiostat
IPRESTEP	QUANT	0.00000E+000	Pre-step Current (A)
TPRESTEP	QUANT	1.00000E+000	Pre-step Delay &Time (s)
ISTEP1	QUANT	5.00000E-005	Step 1 Current (A)
TSTEP1	QUANT	2.00000E+003	Step 1 Time (s)
ISTEP2	QUANT	0.00000E+000	Step 2 Current (A)
TSTEP2	QUANT	2.00000E+003	Step 2 Time (s)
SAMPLETIME	QUANT	1.00000E+000	Sa&mple Period (s)
VLIMITLOWER	QUANT	-1.00000E+002	Lower Limit &V (V)
VLIMITUPPER	QUANT	1.00000E+002	Upper Limit &V (V)
DECIMATE	TOGGLE	F	Decimate
AREA	QUANT	9.00000E-004	Electrode &Area (cm^2)
ELECTRODETYPE	SELECTOR	0	Electrode Type
STRIPPING	TOGGLE	F	Used for Stripping
EQDELAY	QUANT	0.00000E+000	Equil. &Time (s)
CONDIT	TWOPARAM	F	1.50000E+001	0.00000E+000	Conditionin&g	Time(s)	E(V)
DELAY	TWOPARAM	F	3.00000E+002	1.00000E-001	Init. De&lay	Time(s)	Stab.(mV/s)
SAMPLINGMODE	SELECTOR	1	Sampling &Mode
EOC	QUANT	0	Open Circuit (V)
PSTATMODEL	IQUANT	64	Pstat Model
PSTATSECTION	LABEL	IFC1010-39159	Pstat Section
PSTATSERIALNO	LABEL	39159	Pstat Serial Number
CTRLMODE	IQUANT	0	Control Mode
ELECTROMETER	IQUANT	0	RE=0 or CS=1
IESTAB	IQUANT	0	I/E Stability
CASPEED	IQUANT	4	Control Amp Speed
CONVENTION	IQUANT	1	Current Convention
ICHRANGE	IQUANT	2	Ich Range
ICHRANGEMODE	TOGGLE	T	Ich Auto Range
ICHOFFSETENABLE	TOGGLE	F	Ich Offset Enable
ICHOFFSET	QUANT	0	Ich Offset (V)
ICHFILTER	IQUANT	4	Ich Filter
VCHRANGE	IQUANT	3	Vch Range
VCHRANGEMODE	TOGGLE	T	Vch Auto Range
VCHOFFSETENABLE	TOGGLE	F	Vch Offset Enable
VCHOFFSET	QUANT	0	Vch Offset (V)
VCHFILTER	IQUANT	4	Vch Filter
IERANGELOWERLIMIT	IQUANT	4	I/E Range Lower Limit
IERANGEMODE	TOGGLE	F	I/E AutoRange
IERANGE	IQUANT	8	I/E Range
ACHSELECT	IQUANT	0	Ach Select
ACHRANGE	IQUANT	2	Ach Range
ACHOFFSETENABLE	TOGGLE	F	Ach Offset Enable
ACHOFFSET	QUANT	0	Ach Offset (V)
ACHFILTER	IQUANT	1	Ach Filter
SENSECABLEID	IQUANT	14	Sense Cable ID
PWRCABLEID	IQUANT	14	Power Cable ID
DCCALDATE	LABEL	4/24/2024	DC Calibration Date
ACCALDATE	LABEL	3/22/2024	AC Calibration Date
FRAMEWORKVERSION	LABEL	7.10.3	Framework Version
INSTRUMENTVERSION	LABEL	4.91	Instrument Version
COMMVERSION	LABEL	3.10	Communications Version
CPUPLDVERSION	LABEL	2.50	CPU PLD Version
CTRLPLDVERSION	LABEL	0.00	CTRL PLD Version
PSTATPLDVERSION	LABEL	0.00	PSTAT PLD Version
CURVE	TABLE	4001
	Pt	T	Vf	Im	Vu	Sig	Ach	IERange	Over	Temp
	#	s	V vs. Ref.	A	V	V	V	#	bits	deg C
	0	0	7.35026E-001	-1.05255E-009	0.00000E+000	-5.32866E-005	0.00000E+000	8	...........	1564.68
	40	40	6.20456E+000	5.00107E-005	0.00000E+000	1.49916E+000	0.00000E+000	8	..ch.......	1564.02
	80	80	6.23494E+000	5.00082E-005	0.00000E+000	1.49916E+000	0.00000E+000	8	..ch.......	1564.02
	120	120	8.53675E+000	4.85754E-005	0.00000E+000	1.49916E+000	0.00000E+000	8	.echih.....	1564.02
	160	160	6.87617E+000	5.00921E-005	0.00000E+000	1.49916E+000	0.00000E+000	8	..ch.......	1564.11
	200	200	6.28933E+000	5.00115E-005	0.00000E+000	1.49916E+000	0.00000E+000	8	..ch.......	1564.02
	240	240	7.20387E+000	5.00107E-005	0.00000E+000	1.49916E+000	0.00000E+000	8	..ch.......	1564.02
	280	280	6.69546E+000	5.00112E-005	0.00000E+000	1.49916E+000	0.00000E+000	8	..ch.......	1564.11
	320	320	6.65899E+000	5.00115E-005	0.00000E+000	1.49916E+000	0.00000E+000	8	..ch.......	1564.02
	360	360	7.19705E+000	5.01409E-005	0.00000E+000	1.49916E+000	0.00000E+000	8	..ch.......	1564.40
	400	400	7.31257E+000	5.01204E-005	0.00000E+000	1.49916E+000	0.00000E+000	8	..ch.......	1564.11
	440	440	7.23898E+000	5.00114E-005	0.00000E+000	1.49916E+000	0.00000E+000	8	..ch.......	1564.02
	480	480	7.23961E+000	5.01064E-005	0.00000E+000	1.49916E+000	0.00000E+000	8	..ch.......	1564.30
	520	520	7.62861E+000	5.00110E-005	0.00000E+000	1.49916E+000	0.00000E+000	8	..ch.......	1564.30
	560	560	7.30299E+000	5.00108E-005	0.00000E+000	1.49916E+000	0.00000E+000	8	..ch.......	1564.02
	600	600	7.88181E+000	5.00125E-005	0.00000E+000	1.49916E+000	0.00000E+000	8	..ch.......	1564.11
	640	640	8.00078E+000	5.00146E-005	0.00000E+000	1.49916E+000	0.00000E+000	8	..ch.......	1564.11
	680	680	8.47790E+000	5.00117E-005	0.00000E+000	1.49916E+000	0.00000E+000	8	..ch.......	1564.02
	720	720	7.76386E+000	5.01282E-005	0.00000E+000	1.49916E+000	0.00000E+000	8	..ch.......	1564.11
	760	760	8.41027E+000	5.00102E-005	0.00000E+000	1.49916E+000	0.00000E+000	8	..ch.......	1564.11
	800	800	8.30320E+000	5.00109E-005	0.00000E+000	1.49916E+000	0.00000E+000	8	..ch.......	1564.11
	840	840	8.73738E+000	5.00120E-005	0.00000E+000	1.49916E+000	0.00000E+000	8	..ch.......	1564.49
	880	880	8.80243E+000	5.00112E-005	0.00000E+000	1.49916E+000	0.00000E+000	8	..ch.......	1564.11
	920	920	9.43354E+000	5.00117E-005	0.00000E+000	1.49916E+000	0.00000E+000	8	..ch.......	1564.40
	960	960	9.28246E+000	5.00135E-005	0.00000E+000	1.49916E+000	0.00000E+000	8	..ch.......	1564.21
	1000	1000	8.49944E+000	5.00106E-005	0.00000E+000	1.49916E+000	0.00000E+000	8	..ch.......	1564.30
	1040	1040	9.00282E+000	5.00113E-005	0.00000E+000	1.49916E+000	0.00000E+000	8	..ch.......	1564.11
	1080	1080	8.83522E+000	5.00113E-005	0.00000E+000	1.49916E+000	0.00000E+000	8	..ch.......	1564.40
	1120	1120	9.30361E+000	5.00112E-005	0.00000E+000	1.49916E+000	0.00000E+000	8	..ch.......	1564.30
	1160	1160	9.47207E+000	5.00119E-005	0.00000E+000	1.49916E+000	0.00000E+000	8	..ch.......	1564.21
	1200	1200	9.78860E+000	5.00110E-005	0.00000E+000	1.49916E+000	0.00000E+000	8	..ch.......	1564.40
	1240	1240	9.45369E+000	5.00121E-005	0.00000E+000	1.49916E+000	0.00000E+000	8	..ch.......	1564.11
	1280	1280	9.80338E+000	5.00118E-005	0.00000E+000	1.49916E+000	0.00000E+000	8	..ch.......	1564.21
	1320	1320	9.96647E+000	5.00415E-005	0.00000E+000	1.49916E+000	0.00000E+000	8	..ch.......	1564.40
	1360	1360	1.04265E+001	5.00110E-005	0.00000E+000	1.49916E+000	0.00000E+000	8	..ch.......	1564.30
	1400	1400	1.04897E+001	5.01023E-005	0.00000E+000	1.49916E+000	0.00000E+000	8	..ch.......	1564.40
	1440	1440	1.02279E+001	5.00101E-005	0.00000E+000	1.49916E+000	0.00000E+000	8	..ch.......	1564.40
	1480	1480	1.06344E+001	5.00119E-005	0.00000E+000	1.49916E+000	0.00000E+000	8	..ch.......	1564.21
	1520	1520	1.04070E+001	5.00105E-005	0.00000E+000	1.49916E+000	0.00000E+000	8	..ch.......	1564.30
	1560	1560	1.10031E+001	5.00118E-005	0.00000E+000	1.49916E+000	0.00000E+000	8	..ch.......	1564.30
	1600	1600	1.11269E+001	5.00292E-005	0.00000E+000	1.49916E+000	0.00000E+000	8	..ch.......	1564.30
	1640	1640	1.12761E+001	5.00108E-005	0.00000E+000	1.49916E+000	0.00000E+000	8	..ch.......	1564.30
	1680	1680	1.10982E+001	5.00129E-005	0.00000E+000	1.49916E+000	0.00000E+000	8	..ch.......	1564.21
	1720	1720	1.12550E+001	5.00118E-005	0.00000E+000	1.49916E+000	0.00000E+000	8	..ch.......	1564.21
	1760	1760	1.09549E+001	5.00108E-005	0.00000E+000	1.49916E+000	0.00000E+000	8	..ch.......	1564.30
	1800	1800	1.16763E+001	5.00127E-005	0.00000E+000	1.49916E+000	0.00000E+000	8	..ch.......	1564.21
	1840	1840	1.17112E+001	5.00110E-005	0.00000E+000	1.49916E+000	0.00000E+000	8	..ch.......	1564.68
	1880	1880	1.16586E+001	5.00103E-005	0.00000E+000	1.49916E+000	0.00000E+000	8	..ch.......	1564.30
	1920	1920	1.19931E+001	5.00119E-005	0.00000E+000	1.49916E+000	0.00000E+000	8	..ch.......	1564.30
	1960	1960	1.22213E+001	5.00109E-005	0.00000E+000	1.49916E+000	0.00000E+000	8	..ch.......	1564.68
	2000	2000	1.17479E+001	5.00122E-005	0.00000E+000	1.49916E+000	0.00000E+000	8	..ch.......	1564.21
	2040	2040	5.96892E-001	2.82804E-009	0.00000E+000	-5.32866E-005	0.00000E+000	8	..ch.......	1564.02
	2080	2080	2.88796E-002	3.84866E-009	0.00000E+000	-5.32866E-005	0.00000E+000	8	..ch.......	1564.21
	2120	2120	2.19925E-002	6.92304E-009	0.00000E+000	-5.32866E-005	0.00000E+000	8	..ch.......	1564.30
	2160	2160	1.22799E-002	4.72606E-009	0.00000E+000	-5.32866E-005	0.00000E+000	8	..ch.......	1564.21
	2200	2200	9.68962E-003	3.95934E-009	0.00000E+000	-5.32866E-005	0.00000E+000	8	..ch.......	1564.21
	2240	2240	3.55751E-003	3.55832E-009	0.00000E+000	-5.32866E-005	0.00000E+000	8	..ch.......	1564.40
	2280	2280	-2.71817E-003	3.01436E-009	0.00000E+000	-5.32866E-005	0.00000E+000	8	..ch.......	1564.30
	2320	2320	-6.82525E-003	4.18544E-009	0.00000E+000	-5.32866E-005	0.00000E+000	8	..ch.......	1564.21
	2360	2360	-6.71178E-003	3.41622E-009	0.00000E+000	-5.32866E-005	0.00000E+000	8	..ch.......	1564.30
	2400	2400	-1.31252E-002	3.06665E-009	0.00000E+000	-5.32866E-005	0.00000E+000	8	..ch.......	1564.30
	2440	2440	-1.54891E-002	2.52908E-009	0.00000E+000	-5.32866E-005	0.00000E+000	8	..ch.......	1564.49
	2480	2480	-1.68363E-002	5.58427E-009	0.00000E+000	-5.32866E-005	0.00000E+000	8	..ch.......	1564.40
	2520	2520	-1.80070E-002	5.40684E-009	0.00000E+000	-5.32866E-005	0.00000E+000	8	..ch.......	1564.11
	2560	2560	-1.97795E-002	5.21134E-009	0.00000E+000	-5.32866E-005	0.00000E+000	8	..ch.......	1564.11
	2600	2600	-2.10603E-002	4.53334E-009	0.00000E+000	-5.32866E-005	0.00000E+000	8	..ch.......	1564.21
	2640	2640	-2.41419E-002	2.66479E-009	0.00000E+000	-5.32866E-005	0.00000E+000	8	..ch.......	1564.21
	2680	2680	-3.75708E-002	2.65256E-009	0.00000E+000	-5.32866E-005	0.00000E+000	8	..ch.......	1564.30
	2720	2720	-4.20887E-002	2.70178E-009	0.00000E+000	-5.32866E-005	0.00000E+000	8	..ch.......	1564.02
	2760	2760	-3.30388E-002	5.16823E-009	0.00000E+000	-5.32866E-005	0.00000E+000	8	..ch.......	1564.02
	2800	2800	-3.25321E-002	3.27701E-008	0.00000E+000	-5.32866E-005	0.00000E+000	8	..ch.......	1564.02
	2840	2840	-3.08161E-002	3.11225E-009	0.00000E+000	-5.32866E-005	0.00000E+000	8	..ch.......	1564.11
	2880	2880	-3.15699E-002	2.33573E-008	0.00000E+000	-5.32866E-005	0.00000E+000	8	..ch.......	1564.02
	2920	2920	-3.02511E-002	2.52296E-009	0.00000E+000	-5.32866E-005	0.00000E+000	8	..ch.......	1564.02
	2960	2960	-3.11188E-002	1.20754E-008	0.00000E+000	-5.32866E-005	0.00000E+000	8	..ch.......	1564.21
	3000	3000	-3.31580E-002	3.88704E-009	0.00000E+000	-5.32866E-005	0.00000E+000	8	..ch.......	1563.92
	3040	3040	-3.99175E-002	3.33279E-009	0.00000E+000	-5.32866E-005	0.00000E+000	8	..ch.......	1564.21
	3080	3080	-4.00182E-002	2.87448E-009	0.00000E+000	-5.32866E-005	0.00000E+000	8	..ch.......	1564.02
	3120	3120	-3.76138E-002	2.80718E-009	0.00000E+000	-5.32866E-005	0.00000E+000	8	..ch.......	1564.11
	3160	3160	-4.14296E-002	1.68060E-009	0.00000E+000	-5.32866E-005	0.00000E+000	8	..ch.......	1564.30
	3200	3200	-3.65299E-002	2.88133E-008	0.00000E+000	-5.32866E-005	0.00000E+000	8	..ch.......	1564.21
	3240	3240	-4.05313E-002	3.13951E-009	0.00000E+000	-5.32866E-005	0.00000E+000	8	..ch.......	1564.02
	3280	3280	-4.21842E-002	3.72641E-008	0.00000E+000	-5.32866E-005	0.00000E+000	8	..ch.......	1564.02
	3320	3320	-4.80492E-002	3.17853E-008	0.00000E+000	-5.32866E-005	0.00000E+000	8	..ch.......	1564.30
	3360	3360	-4.28042E-002	3.82138E-008	0.00000E+000	-5.32866E-005	0.00000E+000	8	..ch.......	1563.92
	3400	3400	-4.47839E-002	3.95134E-008	0.00000E+000	-5.32866E-005	0.00000E+000	8	..ch.......	1564.30
	3440	3440	-4.12002E-002	3.19555E-008	0.00000E+000	-5.32866E-005	0.00000E+000	8	..ch.......	1564.11
	3480	3480	-4.19736E-002	3.06501E-008	0.00000E+000	-5.32866E-005	0.00000E+000	8	..ch.......	1564.11
	3520	3520	-3.99252E-002	4.77417E-009	0.00000E+000	-5.32866E-005	0.00000E+000	8	..ch.......	1564.11
	3560	3560	-4.25287E-002	5.22052E-009	0.00000E+000	-5.32866E-005	0.00000E+000	8	..ch.......	1563.92
	3600	3600	-4.78884E-002	3.58864E-009	0.00000E+000	-5.32866E-005	0.00000E+000	8	..ch.......	1564.02
	3640	3640	-4.44091E-002	2.26962E-008	0.00000E+000	-5.32866E-005	0.00000E+000	8	..ch.......	1564.11
	3680	3680	-4.32075E-002	7.89916E-009	0.00000E+000	-5.32866E-005	0.00000E+000	8	..ch.......	1564.30
	3720	3720	-4.38721E-002	3.23740E-009	0.00000E+000	-5.32866E-005	0.00000E+000	8	..ch.......	1564.11
	3760	3760	-4.62369E-002	4.27943E-009	0.00000E+000	-5.32866E-005	0.00000E+000	8	..ch.......	1564.11
	3800	3800	-4.93435E-002	3.00685E-009	0.00000E+000	-5.32866E-005	0.00000E+000	8	..ch.......	1564.02
	3840	3840	-4.61951E-002	3.06859E-009	0.00000E+000	-5.32866E-005	0.00000E+000	8	..ch.......	1564.30
	3880	3880	-4.92259E-002	3.31221E-009	0.00000E+000	-5.32866E-005	0.00000E+000	8	..ch.......	1564.02
	3920	3920	-5.00151E-002	3.85756E-009	0.00000E+000	-5.32866E-005	0.00000E+000	8	..ch.......	1564.02
	3960	3960	-4.69968E-002	3.11754E-009	0.00000E+000	-5.32866E-005	0.00000E+000	8	..ch.......	1564.21
	4000	4000	-4.98060E-002	3.30943E-009	0.00000E+000	-5.32866E-005	0.00000E+000	8	..ch.......	1563.92