Folder: MODES/Battery Data/Gamry Data/LiB Cyclic Test/CHARGE_DISCHARGE

Note: README.md
# MODES

This is a repository made with the goal of being able to analyze data whether or not you are in CB 160. The main goal is to be able to easily pass data back and forth, and to be able to use it wherever, whenever, whether or not you have the flashdrive. This will hopefully facilitate that. Also, multiple people should be able to access the data at the same time.

Upload any spectra into the spectra folder, and don't forget to push commits before leaving the lab!
      - more organization will likely come later as we get more and more data and understand the RaptIR better

If you want a quick run down of Git/pulling/pushing the things you changed or added, talk to someone in the group who often deals with data.


Software Training
https://www.thermofisher.com/us/en/home/industrial/spectroscopy-elemental-isotope-analysis/molecular-spectroscopy/fourier-transform-infrared-spectroscopy/software.html

TQ Analyst Training
https://www.thermofisher.com/us/en/home/industrial/spectroscopy-elemental-isotope-analysis/molecular-spectroscopy/fourier-transform-infrared-spectroscopy/software/tq-analyst-pro-software-training.html

FTIR Training
https://www.thermofisher.com/us/en/home/industrial/spectroscopy-elemental-isotope-analysis/molecular-spectroscopy/fourier-transform-infrared-spectroscopy/resources/ftir-spectroscopy-academy.html

OMNIC Training
https://www.thermofisher.com/us/en/home/industrial/spectroscopy-elemental-isotope-analysis/molecular-spectroscopy/fourier-transform-infrared-spectroscopy/software/omnic-software-training.html

Paradigm Training
https://www.thermofisher.com/us/en/home/industrial/spectroscopy-elemental-isotope-analysis/molecular-spectroscopy/fourier-transform-infrared-spectroscopy/software/omnic-paradigm-software-training.html

File: CHARGE_1.DTA
EXPLAIN
TAG	PWR800_CHARGE
TITLE	LABEL	PWR Cyclic Charge Discharge - Charge Step	Test &Identifier
DATE	LABEL	5/3/2024	Date
TIME	LABEL	10:46:54	Time
NOTES	NOTES	1	&Notes...
	EEMB 3.7V LIR2025 coin battery.
PSTAT	PSTAT	IFC1010-39159	Potentiostat
CAPACITY	QUANT	4.00000E-002	Capacity (A-hr)
CELLTYPE	SELECTOR	1	&Cell Type
WORKINGCONNECTION	SELECTOR	0	&Working Lead
MAXCHARGETIME	VARIABLEANDUNITS	1.08000E+004	s	3.00000E+000	hour(s)	Max &Charge Time
CHARGEMODE	MULTIPARAM	0	2.00000E-002	Charge Mode	Constant Current	Amp(s)
CHARGECURRENT	QUANT	0.02	Charge Current (A)
VOLTAGEFINISH	TWOPARAM	F	1.00000E-003	3.60000E+003	&Voltage Finish	 I (A) < 	Max Time(s)
SAMPLETIME	QUANT	5.00000E+000	Sa&mple Period (s)
CHARGESTOPAT1	MULTIPARAM	2	4.00000E+000	Charge Stop At &1	|Voltage| > Limit	V
CHARGESTOPAT2	MULTIPARAM	0	0.00000E+000	Charge Stop At &2	None	N/A
AESBHCSELECTOR	TOGGLE	F	Save Both Half Cells
IRCOMP	TOGGLE	F	IR &Measure
EOC	QUANT	0	Open Circuit (V)
SEQUENCER	TOGGLE	TRUE	Run as Sequence
PSTATMODEL	IQUANT	64	Pstat Model
PSTATSECTION	LABEL	IFC1010-39159	Pstat Section
PSTATSERIALNO	LABEL	39159	Pstat Serial Number
CTRLMODE	IQUANT	0	Control Mode
ELECTROMETER	IQUANT	0	RE=0 or CS=1
IESTAB	IQUANT	0	I/E Stability
CASPEED	IQUANT	4	Control Amp Speed
CONVENTION	IQUANT	1	Current Convention
ICHRANGE	IQUANT	2	Ich Range
ICHRANGEMODE	TOGGLE	T	Ich Auto Range
ICHOFFSETENABLE	TOGGLE	F	Ich Offset Enable
ICHOFFSET	QUANT	0	Ich Offset (V)
ICHFILTER	IQUANT	1	Ich Filter
VCHRANGE	IQUANT	3	Vch Range
VCHRANGEMODE	TOGGLE	T	Vch Auto Range
VCHOFFSETENABLE	TOGGLE	F	Vch Offset Enable
VCHOFFSET	QUANT	0	Vch Offset (V)
VCHFILTER	IQUANT	1	Vch Filter
IERANGELOWERLIMIT	IQUANT	7	I/E Range Lower Limit
IERANGEMODE	TOGGLE	F	I/E AutoRange
IERANGE	IQUANT	11	I/E Range
ACHSELECT	IQUANT	0	Ach Select
ACHRANGE	IQUANT	2	Ach Range
ACHOFFSETENABLE	TOGGLE	F	Ach Offset Enable
ACHOFFSET	QUANT	0	Ach Offset (V)
ACHFILTER	IQUANT	1	Ach Filter
SENSECABLEID	IQUANT	14	Sense Cable ID
PWRCABLEID	IQUANT	14	Power Cable ID
DCCALDATE	LABEL	4/24/2024	DC Calibration Date
ACCALDATE	LABEL	3/22/2024	AC Calibration Date
FRAMEWORKVERSION	LABEL	7.10.3	Framework Version
INSTRUMENTVERSION	LABEL	4.91	Instrument Version
COMMVERSION	LABEL	3.10	Communications Version
CPUPLDVERSION	LABEL	2.50	CPU PLD Version
CTRLPLDVERSION	LABEL	0.00	CTRL PLD Version
PSTATPLDVERSION	LABEL	0.00	PSTAT PLD Version
CURVE	TABLE	946
	Pt	T	Vf	Im	Vu	Pwr	Sig	Ach	Temp	IERange	Over
	#	s	V	A	V	W	V	V	deg C	#	bits
	0	5	3.44496E+000	2.00001E-002	0.00000E+000	6.88996E-002	6.00386E-001	0.00000E+000	1.56468E+003	11	...........
	11	60	3.58328E+000	2.00000E-002	0.00000E+000	7.16655E-002	6.00386E-001	0.00000E+000	1.56463E+003	11	...........
	22	115	3.61082E+000	2.00005E-002	0.00000E+000	7.22183E-002	6.00386E-001	0.00000E+000	1.56467E+003	11	...........
	33	170	3.65584E+000	2.00004E-002	0.00000E+000	7.31184E-002	6.00386E-001	0.00000E+000	1.56463E+003	11	...........
	44	225	3.69131E+000	2.00005E-002	0.00000E+000	7.38279E-002	6.00386E-001	0.00000E+000	1.56468E+003	11	...........
	55	280	3.72014E+000	2.00005E-002	0.00000E+000	7.44048E-002	6.00386E-001	0.00000E+000	1.56468E+003	11	...........
	66	335	3.74317E+000	2.00004E-002	0.00000E+000	7.48648E-002	6.00386E-001	0.00000E+000	1.56468E+003	11	...........
	77	390	3.75779E+000	2.00005E-002	0.00000E+000	7.51578E-002	6.00386E-001	0.00000E+000	1.56468E+003	11	...........
	88	445	3.76381E+000	2.00005E-002	0.00000E+000	7.52779E-002	6.00386E-001	0.00000E+000	1.56458E+003	11	...........
	99	500	3.76679E+000	2.00005E-002	0.00000E+000	7.53378E-002	6.00386E-001	0.00000E+000	1.56468E+003	11	...........
	110	555	3.76923E+000	2.00006E-002	0.00000E+000	7.53867E-002	6.00386E-001	0.00000E+000	1.56468E+003	11	...........
	121	610	3.77162E+000	2.00035E-002	0.00000E+000	7.54456E-002	6.00386E-001	0.00000E+000	1.56463E+003	11	...........
	132	665	3.77426E+000	2.00014E-002	0.00000E+000	7.54907E-002	6.00386E-001	0.00000E+000	1.56467E+003	11	...........
	143	720	3.77733E+000	2.00008E-002	0.00000E+000	7.55498E-002	6.00386E-001	0.00000E+000	1.56468E+003	11	...........
	154	775	3.78106E+000	2.00019E-002	0.00000E+000	7.56285E-002	6.00386E-001	0.00000E+000	1.56468E+003	11	...........
	165	830	3.78508E+000	2.00034E-002	0.00000E+000	7.57146E-002	6.00386E-001	0.00000E+000	1.56468E+003	11	...........
	176	885	3.78943E+000	2.00014E-002	0.00000E+000	7.57940E-002	6.00386E-001	0.00000E+000	1.56468E+003	11	...........
	187	940	3.79414E+000	2.00036E-002	0.00000E+000	7.58966E-002	6.00386E-001	0.00000E+000	1.56468E+003	11	...........
	198	995	3.79885E+000	2.00009E-002	0.00000E+000	7.59803E-002	6.00386E-001	0.00000E+000	1.56468E+003	11	...........
	209	1050	3.80367E+000	2.00009E-002	0.00000E+000	7.60767E-002	6.00386E-001	0.00000E+000	1.56468E+003	11	...........
	220	1105	3.80850E+000	2.00008E-002	0.00000E+000	7.61731E-002	6.00386E-001	0.00000E+000	1.56468E+003	11	...........
	231	1160	3.81337E+000	2.00009E-002	0.00000E+000	7.62709E-002	6.00386E-001	0.00000E+000	1.56468E+003	11	...........
	242	1215	3.81800E+000	2.00028E-002	0.00000E+000	7.63705E-002	6.00386E-001	0.00000E+000	1.56468E+003	11	...........
	253	1270	3.82259E+000	2.00008E-002	0.00000E+000	7.64549E-002	6.00386E-001	0.00000E+000	1.56468E+003	11	...........
	264	1325	3.82722E+000	2.00008E-002	0.00000E+000	7.65472E-002	6.00386E-001	0.00000E+000	1.56468E+003	11	...........
	275	1380	3.83161E+000	2.00014E-002	0.00000E+000	7.66376E-002	6.00386E-001	0.00000E+000	1.56468E+003	11	...........
	286	1435	3.83622E+000	2.00021E-002	0.00000E+000	7.67325E-002	6.00386E-001	0.00000E+000	1.56468E+003	11	...........
	297	1490	3.84054E+000	2.00008E-002	0.00000E+000	7.68140E-002	6.00386E-001	0.00000E+000	1.56468E+003	11	...........
	308	1545	3.84459E+000	2.00008E-002	0.00000E+000	7.68947E-002	6.00386E-001	0.00000E+000	1.56468E+003	11	...........
	319	1600	3.84837E+000	2.00038E-002	0.00000E+000	7.69819E-002	6.00386E-001	0.00000E+000	1.56468E+003	11	...........
	330	1655	3.85216E+000	2.00026E-002	0.00000E+000	7.70532E-002	6.00386E-001	0.00000E+000	1.56467E+003	11	...........
	341	1710	3.85571E+000	2.00007E-002	0.00000E+000	7.71171E-002	6.00386E-001	0.00000E+000	1.56468E+003	11	...........
	352	1765	3.85900E+000	2.00007E-002	0.00000E+000	7.71826E-002	6.00386E-001	0.00000E+000	1.56467E+003	11	...........
	363	1820	3.86239E+000	2.00007E-002	0.00000E+000	7.72505E-002	6.00386E-001	0.00000E+000	1.56468E+003	11	...........
	374	1875	3.86615E+000	2.00007E-002	0.00000E+000	7.73258E-002	6.00386E-001	0.00000E+000	1.56468E+003	11	...........
	385	1930	3.86919E+000	2.00007E-002	0.00000E+000	7.73865E-002	6.00386E-001	0.00000E+000	1.56468E+003	11	...........
	396	1985	3.87206E+000	2.00007E-002	0.00000E+000	7.74440E-002	6.00386E-001	0.00000E+000	1.56468E+003	11	...........
	407	2040	3.87481E+000	2.00007E-002	0.00000E+000	7.74991E-002	6.00386E-001	0.00000E+000	1.56468E+003	11	...........
	418	2095	3.87719E+000	2.00007E-002	0.00000E+000	7.75466E-002	6.00386E-001	0.00000E+000	1.56468E+003	11	...........
	429	2150	3.87913E+000	2.00026E-002	0.00000E+000	7.75929E-002	6.00386E-001	0.00000E+000	1.56468E+003	11	...........
	440	2205	3.88055E+000	2.00009E-002	0.00000E+000	7.76147E-002	6.00386E-001	0.00000E+000	1.56468E+003	11	...........
	451	2260	3.88177E+000	2.00010E-002	0.00000E+000	7.76392E-002	6.00386E-001	0.00000E+000	1.56463E+003	11	...........
[...]
	616	3085	3.90579E+000	2.00008E-002	0.00000E+000	7.81188E-002	6.00386E-001	0.00000E+000	1.56468E+003	11	...........
	627	3140	3.90778E+000	2.00033E-002	0.00000E+000	7.81684E-002	6.00386E-001	0.00000E+000	1.56468E+003	11	...........
	638	3195	3.90984E+000	2.00007E-002	0.00000E+000	7.81994E-002	6.00386E-001	0.00000E+000	1.56468E+003	11	...........
	649	3250	3.91211E+000	2.00008E-002	0.00000E+000	7.82453E-002	6.00386E-001	0.00000E+000	1.56468E+003	11	...........
	660	3305	3.91451E+000	2.00015E-002	0.00000E+000	7.82961E-002	6.00386E-001	0.00000E+000	1.56468E+003	11	...........
	671	3360	3.91675E+000	2.00007E-002	0.00000E+000	7.83380E-002	6.00386E-001	0.00000E+000	1.56468E+003	11	...........
	682	3415	3.91901E+000	2.00008E-002	0.00000E+000	7.83831E-002	6.00386E-001	0.00000E+000	1.56467E+003	11	...........
	693	3470	3.92147E+000	2.00006E-002	0.00000E+000	7.84319E-002	6.00386E-001	0.00000E+000	1.56473E+003	11	...........
	704	3525	3.92392E+000	2.00025E-002	0.00000E+000	7.84882E-002	6.00386E-001	0.00000E+000	1.56468E+003	11	...........
	715	3580	3.92653E+000	2.00017E-002	0.00000E+000	7.85371E-002	6.00386E-001	0.00000E+000	1.56468E+003	11	...........
	726	3635	3.92947E+000	2.00020E-002	0.00000E+000	7.85974E-002	6.00386E-001	0.00000E+000	1.56468E+003	11	...........
	737	3690	3.93228E+000	2.00016E-002	0.00000E+000	7.86520E-002	6.00386E-001	0.00000E+000	1.56470E+003	11	...........
	748	3745	3.93513E+000	2.00020E-002	0.00000E+000	7.87106E-002	6.00386E-001	0.00000E+000	1.56470E+003	11	...........
	759	3800	3.93802E+000	2.00036E-002	0.00000E+000	7.87746E-002	6.00386E-001	0.00000E+000	1.56468E+003	11	...........
	770	3855	3.94107E+000	2.00023E-002	0.00000E+000	7.88306E-002	6.00386E-001	0.00000E+000	1.56473E+003	11	...........
	781	3910	3.94404E+000	2.00008E-002	0.00000E+000	7.88841E-002	6.00386E-001	0.00000E+000	1.56473E+003	11	...........
	792	3965	3.94731E+000	2.00040E-002	0.00000E+000	7.89621E-002	6.00386E-001	0.00000E+000	1.56468E+003	11	...........
	803	4020	3.95056E+000	2.00038E-002	0.00000E+000	7.90264E-002	6.00386E-001	0.00000E+000	1.56468E+003	11	...........
	814	4075	3.95389E+000	2.00022E-002	0.00000E+000	7.90867E-002	6.00386E-001	0.00000E+000	1.56468E+003	11	...........
	825	4130	3.95732E+000	2.00039E-002	0.00000E+000	7.91620E-002	6.00386E-001	0.00000E+000	1.56468E+003	11	...........
	836	4185	3.96083E+000	2.00040E-002	0.00000E+000	7.92325E-002	6.00386E-001	0.00000E+000	1.56468E+003	11	...........
	847	4240	3.96449E+000	2.00032E-002	0.00000E+000	7.93023E-002	6.00386E-001	0.00000E+000	1.56473E+003	11	...........
	858	4295	3.96868E+000	2.00032E-002	0.00000E+000	7.93861E-002	6.00386E-001	0.00000E+000	1.56468E+003	11	...........
	869	4350	3.97277E+000	2.00027E-002	0.00000E+000	7.94662E-002	6.00386E-001	0.00000E+000	1.56470E+003	11	...........
	880	4405	3.97664E+000	2.00009E-002	0.00000E+000	7.95364E-002	6.00386E-001	0.00000E+000	1.56468E+003	11	...........
	891	4460	3.98045E+000	2.00037E-002	0.00000E+000	7.96236E-002	6.00386E-001	0.00000E+000	1.56468E+003	11	...........
	902	4515	3.98425E+000	2.00038E-002	0.00000E+000	7.97000E-002	6.00386E-001	0.00000E+000	1.56468E+003	11	...........
	913	4570	3.98800E+000	2.00040E-002	0.00000E+000	7.97761E-002	6.00386E-001	0.00000E+000	1.56468E+003	11	...........
	924	4625	3.99185E+000	2.00040E-002	0.00000E+000	7.98530E-002	6.00386E-001	0.00000E+000	1.56473E+003	11	...........
	935	4680	3.99608E+000	2.00009E-002	0.00000E+000	7.99251E-002	6.00386E-001	0.00000E+000	1.56468E+003	11	...........
	945	4725.42	3.99976E+000	2.00006E-002	0.00000E+000	7.99978E-002	6.00386E-001	0.00000E+000	1.56469E+003	11	...........
STARTTIMEOFFSET	QUANT	170.7717	Start Time Offset (s)

File: DISCHARGE_1.DTA
EXPLAIN
TAG	PWR800_DISCHARGE
TITLE	LABEL	PWR Cyclic Charge Discharge - Discharge Step	Test &Identifier
DATE	LABEL	5/3/2024	Date
TIME	LABEL	10:44:03	Time
NOTES	NOTES	1	&Notes...
	EEMB 3.7V LIR2025 coin battery.
PSTAT	PSTAT	IFC1010-39159	Potentiostat
CAPACITY	QUANT	4.00000E-002	Capacity (A-hr)
CELLTYPE	SELECTOR	1	&Cell Type
WORKINGCONNECTION	SELECTOR	0	&Working Lead
MAXDISCHARGETIME	VARIABLEANDUNITS	1.08000E+004	s	3.00000E+000	hour(s)	Max &Discharge Time
DISCHARGEMODE	MULTIPARAM	0	2.00000E-002	&Discharge Mode	Constant Current	Amp(s)
VOLTAGEFINISH	TWOPARAM	F	1.00000E-003	3.60000E+003	Voltage Finish	 I (A) < 	Max Time(s)
SAMPLETIME	QUANT	5.00000E+000	Sa&mple Period (s)
DISCHARGESTOPAT1	MULTIPARAM	1	3.20000E+000	Discharge Stop At &1	|Voltage| < Limit	V
DISCHARGESTOPAT2	MULTIPARAM	0	0.00000E+000	Discharge Stop At &2	None	N/A
AESBHCSELECTOR	TOGGLE	F	Save Both Half Cells
IRCOMP	TOGGLE	F	IR &Measure
EOC	QUANT	0	Open Circuit (V)
SEQUENCER	TOGGLE	TRUE	Run as Sequence
PSTATMODEL	IQUANT	64	Pstat Model
PSTATSECTION	LABEL	IFC1010-39159	Pstat Section
PSTATSERIALNO	LABEL	39159	Pstat Serial Number
CTRLMODE	IQUANT	0	Control Mode
ELECTROMETER	IQUANT	0	RE=0 or CS=1
IESTAB	IQUANT	0	I/E Stability
CASPEED	IQUANT	4	Control Amp Speed
CONVENTION	IQUANT	1	Current Convention
ICHRANGE	IQUANT	2	Ich Range
ICHRANGEMODE	TOGGLE	T	Ich Auto Range
ICHOFFSETENABLE	TOGGLE	F	Ich Offset Enable
ICHOFFSET	QUANT	0	Ich Offset (V)
ICHFILTER	IQUANT	1	Ich Filter
VCHRANGE	IQUANT	3	Vch Range
VCHRANGEMODE	TOGGLE	T	Vch Auto Range
VCHOFFSETENABLE	TOGGLE	F	Vch Offset Enable
VCHOFFSET	QUANT	0	Vch Offset (V)
VCHFILTER	IQUANT	1	Vch Filter
IERANGELOWERLIMIT	IQUANT	7	I/E Range Lower Limit
IERANGEMODE	TOGGLE	F	I/E AutoRange
IERANGE	IQUANT	11	I/E Range
ACHSELECT	IQUANT	0	Ach Select
ACHRANGE	IQUANT	2	Ach Range
ACHOFFSETENABLE	TOGGLE	F	Ach Offset Enable
ACHOFFSET	QUANT	0	Ach Offset (V)
ACHFILTER	IQUANT	1	Ach Filter
SENSECABLEID	IQUANT	14	Sense Cable ID
PWRCABLEID	IQUANT	14	Power Cable ID
DCCALDATE	LABEL	4/24/2024	DC Calibration Date
ACCALDATE	LABEL	3/22/2024	AC Calibration Date
FRAMEWORKVERSION	LABEL	7.10.3	Framework Version
INSTRUMENTVERSION	LABEL	4.91	Instrument Version
COMMVERSION	LABEL	3.10	Communications Version
CPUPLDVERSION	LABEL	2.50	CPU PLD Version
CTRLPLDVERSION	LABEL	0.00	CTRL PLD Version
PSTATPLDVERSION	LABEL	0.00	PSTAT PLD Version
CURVE	TABLE	35
	Pt	T	Vf	Im	Vu	Pwr	Sig	Ach	Temp	IERange	Over
	#	s	V	A	V	W	V	V	deg C	#	bits
	0	5	3.45214E+000	-2.00096E-002	0.00000E+000	-6.90762E-002	-6.00386E-001	0.00000E+000	1.56486E+003	11	...........
	1	10	3.44261E+000	-2.00095E-002	0.00000E+000	-6.88851E-002	-6.00386E-001	0.00000E+000	1.56468E+003	11	...........
	2	15	3.43486E+000	-2.00096E-002	0.00000E+000	-6.87302E-002	-6.00386E-001	0.00000E+000	1.56468E+003	11	...........
	3	20	3.42772E+000	-2.00095E-002	0.00000E+000	-6.85871E-002	-6.00386E-001	0.00000E+000	1.56466E+003	11	...........
	4	25	3.42105E+000	-2.00095E-002	0.00000E+000	-6.84535E-002	-6.00386E-001	0.00000E+000	1.56468E+003	11	...........
	5	30	3.41461E+000	-2.00095E-002	0.00000E+000	-6.83247E-002	-6.00386E-001	0.00000E+000	1.56468E+003	11	...........
	6	35	3.40836E+000	-2.00095E-002	0.00000E+000	-6.81995E-002	-6.00386E-001	0.00000E+000	1.56463E+003	11	...........
	7	40	3.40218E+000	-2.00095E-002	0.00000E+000	-6.80761E-002	-6.00386E-001	0.00000E+000	1.56467E+003	11	...........
	8	45	3.39609E+000	-2.00095E-002	0.00000E+000	-6.79541E-002	-6.00386E-001	0.00000E+000	1.56468E+003	11	...........
	9	50	3.39005E+000	-2.00095E-002	0.00000E+000	-6.78333E-002	-6.00386E-001	0.00000E+000	1.56468E+003	11	...........
	10	55	3.38398E+000	-2.00095E-002	0.00000E+000	-6.77118E-002	-6.00386E-001	0.00000E+000	1.56463E+003	11	...........
	11	60	3.37782E+000	-2.00095E-002	0.00000E+000	-6.75886E-002	-6.00386E-001	0.00000E+000	1.56468E+003	11	...........
	12	65	3.37164E+000	-2.00095E-002	0.00000E+000	-6.74649E-002	-6.00386E-001	0.00000E+000	1.56468E+003	11	...........
	13	70	3.36546E+000	-2.00095E-002	0.00000E+000	-6.73414E-002	-6.00386E-001	0.00000E+000	1.56468E+003	11	...........
	14	75	3.35917E+000	-2.00095E-002	0.00000E+000	-6.72153E-002	-6.00386E-001	0.00000E+000	1.56468E+003	11	...........
	15	80	3.35282E+000	-2.00095E-002	0.00000E+000	-6.70884E-002	-6.00386E-001	0.00000E+000	1.56468E+003	11	...........
	16	85	3.34648E+000	-2.00095E-002	0.00000E+000	-6.69613E-002	-6.00386E-001	0.00000E+000	1.56468E+003	11	...........
	17	90	3.33994E+000	-2.00095E-002	0.00000E+000	-6.68307E-002	-6.00386E-001	0.00000E+000	1.56468E+003	11	...........
	18	95	3.33333E+000	-2.00095E-002	0.00000E+000	-6.66985E-002	-6.00386E-001	0.00000E+000	1.56468E+003	11	...........
	19	100	3.32650E+000	-2.00096E-002	0.00000E+000	-6.65618E-002	-6.00386E-001	0.00000E+000	1.56468E+003	11	...........
	20	105	3.31958E+000	-2.00096E-002	0.00000E+000	-6.64234E-002	-6.00386E-001	0.00000E+000	1.56468E+003	11	...........
	21	110	3.31241E+000	-2.00096E-002	0.00000E+000	-6.62800E-002	-6.00386E-001	0.00000E+000	1.56468E+003	11	...........
	22	115	3.30508E+000	-2.00097E-002	0.00000E+000	-6.61334E-002	-6.00386E-001	0.00000E+000	1.56468E+003	11	...........
	23	120	3.29762E+000	-2.00096E-002	0.00000E+000	-6.59841E-002	-6.00386E-001	0.00000E+000	1.56468E+003	11	...........
	24	125	3.29005E+000	-2.00096E-002	0.00000E+000	-6.58325E-002	-6.00386E-001	0.00000E+000	1.56468E+003	11	...........
	25	130	3.28215E+000	-2.00096E-002	0.00000E+000	-6.56745E-002	-6.00386E-001	0.00000E+000	1.56468E+003	11	...........
	26	135	3.27405E+000	-2.00095E-002	0.00000E+000	-6.55122E-002	-6.00386E-001	0.00000E+000	1.56466E+003	11	...........
	27	140	3.26562E+000	-2.00096E-002	0.00000E+000	-6.53436E-002	-6.00386E-001	0.00000E+000	1.56466E+003	11	...........
	28	145	3.25687E+000	-2.00095E-002	0.00000E+000	-6.51685E-002	-6.00386E-001	0.00000E+000	1.56468E+003	11	...........
	29	150	3.24777E+000	-2.00096E-002	0.00000E+000	-6.49866E-002	-6.00386E-001	0.00000E+000	1.56467E+003	11	...........
	30	155	3.23836E+000	-2.00095E-002	0.00000E+000	-6.47980E-002	-6.00386E-001	0.00000E+000	1.56468E+003	11	...........
	31	160	3.22846E+000	-2.00095E-002	0.00000E+000	-6.45997E-002	-6.00386E-001	0.00000E+000	1.56468E+003	11	...........
	32	165	3.21816E+000	-2.00095E-002	0.00000E+000	-6.43937E-002	-6.00386E-001	0.00000E+000	1.56468E+003	11	...........
	33	170	3.20744E+000	-2.00095E-002	0.00000E+000	-6.41791E-002	-6.00386E-001	0.00000E+000	1.56467E+003	11	...........
	34	170.772	3.20103E+000	-2.00096E-002	0.00000E+000	-6.40511E-002	-6.00386E-001	0.00000E+000	1.56465E+003	11	...........
STARTTIMEOFFSET	QUANT	0	Start Time Offset (s)